{
  "resourceType": "Bundle",
  "id": "epsdt-encounter-denied-bundle",
  "type": "collection",
  "timestamp": "2025-01-15T14:30:00Z",
  "entry": [
    {
      "resource": {
        "resourceType": "Patient",
        "id": "epsdt-patient-denied-001",
        "identifier": [
          {
            "use": "usual",
            "type": {
              "coding": [
                {
                  "system": "http://terminology.hl7.org/CodeSystem/v2-0203",
                  "code": "MR",
                  "display": "Medical Record Number"
                }
              ]
            },
            "system": "http://portland-clinic.org/patient-id",
            "value": "EP2025002"
          },
          {
            "use": "official",
            "type": {
              "coding": [
                {
                  "system": "http://terminology.hl7.org/CodeSystem/v2-0203",
                  "code": "SB",
                  "display": "Social Beneficiary Identifier"
                }
              ]
            },
            "system": "http://hl7.org/fhir/sid/us-ssn",
            "value": "987-65-4321"
          }
        ],
        "active": true,
        "name": [
          {
            "use": "official",
            "family": "Thompson",
            "given": ["Robert", "James"]
          }
        ],
        "gender": "male",
        "birthDate": "2002-11-10",
        "address": [
          {
            "use": "home",
            "type": "both",
            "line": ["123 Oak Street"],
            "city": "Portland",
            "state": "OR",
            "postalCode": "97201",
            "country": "US"
          }
        ],
        "contact": [
          {
            "relationship": [
              {
                "coding": [
                  {
                    "system": "http://terminology.hl7.org/CodeSystem/v3-RoleCode",
                    "code": "FTH",
                    "display": "Father"
                  }
                ]
              }
            ],
            "name": {
              "use": "official",
              "family": "Thompson",
              "given": ["David"]
            },
            "telecom": [
              {
                "system": "phone",
                "value": "(503) 555-0123",
                "use": "mobile"
              }
            ]
          }
        ]
      }
    },
    {
      "resource": {
        "resourceType": "Coverage",
        "id": "epsdt-coverage-denied-001",
        "status": "cancelled",
        "type": {
          "coding": [
            {
              "system": "http://terminology.hl7.org/CodeSystem/v3-ActCode",
              "code": "PUBLICPOL",
              "display": "Public Healthcare"
            }
          ]
        },
        "beneficiary": {
          "reference": "Patient/epsdt-patient-denied-001"
        },
        "period": {
          "start": "2024-01-01",
          "end": "2024-12-31"
        },
        "payor": [
          {
            "display": "Oregon Health Plan"
          }
        ],
        "class": [
          {
            "type": {
              "coding": [
                {
                  "system": "http://terminology.hl7.org/CodeSystem/coverage-class",
                  "code": "plan",
                  "display": "Plan"
                }
              ]
            },
            "value": "EXPIRED_MEDICAID",
            "name": "Expired Medicaid Coverage"
          }
        ]
      }
    },
    {
      "resource": {
        "resourceType": "Encounter",
        "id": "epsdt-encounter-denied-001",
        "status": "finished",
        "class": {
          "system": "http://terminology.hl7.org/CodeSystem/v3-ActCode",
          "code": "AMB",
          "display": "ambulatory"
        },
        "type": [
          {
            "coding": [
              {
                "system": "http://snomed.info/sct",
                "code": "185349003",
                "display": "Encounter for check up"
              }
            ]
          }
        ],
        "subject": {
          "reference": "Patient/epsdt-patient-denied-001"
        },
        "period": {
          "start": "2025-01-15T14:00:00Z",
          "end": "2025-01-15T15:00:00Z"
        },
        "reasonCode": [
          {
            "coding": [
              {
                "system": "http://snomed.info/sct",
                "code": "185349003",
                "display": "Encounter for check up"
              }
            ],
            "text": "Annual physical examination"
          }
        ],
        "serviceProvider": {
          "reference": "Organization/portland-clinic"
        },
        "participant": [
          {
            "type": [
              {
                "coding": [
                  {
                    "system": "http://terminology.hl7.org/CodeSystem/v3-ParticipationType",
                    "code": "PPRF",
                    "display": "primary performer"
                  }
                ]
              }
            ],
            "individual": {
              "reference": "Practitioner/dr-smith"
            }
          }
        ]
      }
    },
    {
      "resource": {
        "resourceType": "Condition",
        "id": "epsdt-screening-condition-denied",
        "clinicalStatus": {
          "coding": [
            {
              "system": "http://terminology.hl7.org/CodeSystem/condition-clinical",
              "code": "active"
            }
          ]
        },
        "verificationStatus": {
          "coding": [
            {
              "system": "http://terminology.hl7.org/CodeSystem/condition-ver-status",
              "code": "confirmed"
            }
          ]
        },
        "category": [
          {
            "coding": [
              {
                "system": "http://terminology.hl7.org/CodeSystem/condition-category",
                "code": "encounter-diagnosis",
                "display": "Encounter Diagnosis"
              }
            ]
          }
        ],
        "code": {
          "coding": [
            {
              "system": "http://hl7.org/fhir/sid/icd-10-cm",
              "code": "Z00.00",
              "display": "Encounter for general adult medical examination without abnormal findings"
            }
          ]
        },
        "subject": {
          "reference": "Patient/epsdt-patient-denied-001"
        },
        "encounter": {
          "reference": "Encounter/epsdt-encounter-denied-001"
        },
        "recordedDate": "2025-01-15"
      }
    },
    {
      "resource": {
        "resourceType": "Procedure",
        "id": "epsdt-adult-exam-denied",
        "status": "completed",
        "category": {
          "coding": [
            {
              "system": "http://snomed.info/sct",
              "code": "103693007",
              "display": "Diagnostic procedure"
            }
          ]
        },
        "code": {
          "coding": [
            {
              "system": "http://www.ama-assn.org/go/cpt",
              "code": "99396",
              "display": "Periodic comprehensive preventive medicine reevaluation and management of an individual including an age and gender appropriate history, examination, counseling/anticipatory guidance/risk factor reduction interventions, and the ordering of laboratory/diagnostic procedures, established patient; 40-64 years"
            }
          ]
        },
        "subject": {
          "reference": "Patient/epsdt-patient-denied-001"
        },
        "encounter": {
          "reference": "Encounter/epsdt-encounter-denied-001"
        },
        "performedDateTime": "2025-01-15T14:15:00Z",
        "performer": [
          {
            "actor": {
              "reference": "Practitioner/dr-smith"
            }
          }
        ],
        "reasonCode": [
          {
            "coding": [
              {
                "system": "http://snomed.info/sct",
                "code": "185349003",
                "display": "Encounter for check up"
              }
            ],
            "text": "Annual adult physical examination"
          }
        ]
      }
    },
    {
      "resource": {
        "resourceType": "Procedure",
        "id": "epsdt-cosmetic-procedure-denied",
        "status": "completed",
        "category": {
          "coding": [
            {
              "system": "http://snomed.info/sct",
              "code": "387713003",
              "display": "Surgical procedure"
            }
          ]
        },
        "code": {
          "coding": [
            {
              "system": "http://www.ama-assn.org/go/cpt",
              "code": "15823",
              "display": "Blepharoplasty, upper eyelid"
            }
          ]
        },
        "subject": {
          "reference": "Patient/epsdt-patient-denied-001"
        },
        "encounter": {
          "reference": "Encounter/epsdt-encounter-denied-001"
        },
        "performedDateTime": "2025-01-15T14:30:00Z",
        "reasonCode": [
          {
            "coding": [
              {
                "system": "http://snomed.info/sct",
                "code": "81024007",
                "display": "Cosmetic procedure"
              }
            ],
            "text": "Elective cosmetic eyelid surgery"
          }
        ]
      }
    },
    {
      "resource": {
        "resourceType": "Procedure",
        "id": "epsdt-experimental-procedure-denied",
        "status": "completed",
        "category": {
          "coding": [
            {
              "system": "http://snomed.info/sct",
              "code": "103693007",
              "display": "Diagnostic procedure"
            }
          ]
        },
        "code": {
          "coding": [
            {
              "system": "http://www.ama-assn.org/go/cpt",
              "code": "0001U",
              "display": "Experimental genetic testing panel"
            }
          ]
        },
        "subject": {
          "reference": "Patient/epsdt-patient-denied-001"
        },
        "encounter": {
          "reference": "Encounter/epsdt-encounter-denied-001"
        },
        "performedDateTime": "2025-01-15T14:45:00Z",
        "reasonCode": [
          {
            "coding": [
              {
                "system": "http://snomed.info/sct",
                "code": "182836005",
                "display": "Review of medication"
              }
            ],
            "text": "Experimental genetic testing without medical necessity"
          }
        ]
      }
    },
    {
      "resource": {
        "resourceType": "Observation",
        "id": "epsdt-blood-pressure-denied",
        "status": "final",
        "category": [
          {
            "coding": [
              {
                "system": "http://terminology.hl7.org/CodeSystem/observation-category",
                "code": "vital-signs",
                "display": "Vital Signs"
              }
            ]
          }
        ],
        "code": {
          "coding": [
            {
              "system": "http://loinc.org",
              "code": "85354-9",
              "display": "Blood pressure panel with all children optional"
            }
          ]
        },
        "subject": {
          "reference": "Patient/epsdt-patient-denied-001"
        },
        "encounter": {
          "reference": "Encounter/epsdt-encounter-denied-001"
        },
        "effectiveDateTime": "2025-01-15T14:20:00Z",
        "component": [
          {
            "code": {
              "coding": [
                {
                  "system": "http://loinc.org",
                  "code": "8480-6",
                  "display": "Systolic blood pressure"
                }
              ]
            },
            "valueQuantity": {
              "value": 125,
              "unit": "mmHg",
              "system": "http://unitsofmeasure.org",
              "code": "mm[Hg]"
            }
          },
          {
            "code": {
              "coding": [
                {
                  "system": "http://loinc.org",
                  "code": "8462-4",
                  "display": "Diastolic blood pressure"
                }
              ]
            },
            "valueQuantity": {
              "value": 80,
              "unit": "mmHg",
              "system": "http://unitsofmeasure.org",
              "code": "mm[Hg]"
            }
          }
        ]
      }
    },
    {
      "resource": {
        "resourceType": "Organization",
        "id": "portland-clinic",
        "active": true,
        "type": [
          {
            "coding": [
              {
                "system": "http://terminology.hl7.org/CodeSystem/organization-type",
                "code": "prov",
                "display": "Healthcare Provider"
              }
            ]
          }
        ],
        "name": "Portland General Clinic",
        "telecom": [
          {
            "system": "phone",
            "value": "(503) 555-0199"
          }
        ],
        "address": [
          {
            "use": "work",
            "line": ["456 Medical Plaza"],
            "city": "Portland",
            "state": "OR",
            "postalCode": "97201"
          }
        ]
      }
    },
    {
      "resource": {
        "resourceType": "Practitioner",
        "id": "dr-smith",
        "active": true,
        "name": [
          {
            "use": "official",
            "family": "Smith",
            "given": ["Jennifer"],
            "prefix": ["Dr."]
          }
        ],
        "qualification": [
          {
            "code": {
              "coding": [
                {
                  "system": "http://terminology.hl7.org/CodeSystem/v2-0360",
                  "code": "MD",
                  "display": "Doctor of Medicine"
                }
              ]
            }
          }
        ]
      }
    }
  ]
}
