{
  "resourceType": "Bundle",
  "id": "prior-auth-family-planning-bundle",
  "meta": {
    "versionId": "1",
    "lastUpdated": "2025-01-15T10:30:00Z",
    "profile": [
      "http://hl7.org/fhir/StructureDefinition/Bundle"
    ]
  },
  "type": "collection",
  "timestamp": "2025-01-15T10:30:00Z",
  "entry": [
    {
      "fullUrl": "urn:uuid:patient-sarah-johnson",
      "resource": {
        "resourceType": "Patient",
        "id": "patient-sarah-johnson",
        "identifier": [
          {
            "use": "usual",
            "type": {
              "coding": [
                {
                  "system": "http://terminology.hl7.org/CodeSystem/v2-0203",
                  "code": "MR"
                }
              ]
            },
            "system": "http://seattle-family-planning-clinic.org/patient-id",
            "value": "FP2025001"
          }
        ],
        "active": true,
        "name": [
          {
            "use": "official",
            "family": "Johnson",
            "given": ["Sarah"]
          }
        ],
        "gender": "female",
        "birthDate": "2001-03-15",
        "address": [
          {
            "use": "home",
            "line": ["123 Main Street"],
            "city": "Seattle",
            "state": "WA",
            "postalCode": "98101",
            "country": "US"
          }
        ]
      }
    },
    {
      "fullUrl": "urn:uuid:coverage-family-planning-only",
      "resource": {
        "resourceType": "Coverage",
        "id": "coverage-family-planning-only",
        "status": "active",
        "type": {
          "coding": [
            {
              "system": "http://terminology.hl7.org/CodeSystem/v3-ActCode",
              "code": "PUBLICPOL",
              "display": "Public Healthcare Program"
            }
          ],
          "text": "Family Planning Only Program"
        },
        "subscriber": {
          "reference": "urn:uuid:patient-sarah-johnson"
        },
        "beneficiary": {
          "reference": "urn:uuid:patient-sarah-johnson"
        },
        "period": {
          "start": "2025-01-01",
          "end": "2025-12-31"
        },
        "payor": [
          {
            "display": "Washington State Health Care Authority"
          }
        ]
      }
    },
    {
      "fullUrl": "urn:uuid:service-request-family-planning",
      "resource": {
        "resourceType": "ServiceRequest",
        "id": "service-request-family-planning",
        "status": "active",
        "intent": "order",
        "category": [
          {
            "coding": [
              {
                "system": "http://snomed.info/sct",
                "code": "386053000",
                "display": "Evaluation procedure"
              }
            ]
          }
        ],
        "code": {
          "coding": [
            {
              "system": "http://snomed.info/sct",
              "code": "439708006",
              "display": "Family planning visit"
            }
          ],
          "text": "Comprehensive Family Planning Visit"
        },
        "subject": {
          "reference": "urn:uuid:patient-sarah-johnson"
        },
        "authoredOn": "2025-01-15T09:00:00Z",
        "reasonCode": [
          {
            "coding": [
              {
                "system": "http://hl7.org/fhir/sid/icd-10-cm",
                "code": "Z30.09",
                "display": "Encounter for initial prescription of contraceptives"
              }
            ]
          }
        ],
        "insurance": [
          {
            "reference": "urn:uuid:coverage-family-planning-only"
          }
        ]
      }
    },
    {
      "fullUrl": "urn:uuid:claim-request",
      "resource": {
        "resourceType": "Claim",
        "id": "claim-request",
        "status": "active",
        "type": {
          "coding": [
            {
              "system": "http://terminology.hl7.org/CodeSystem/claim-type",
              "code": "professional"
            }
          ]
        },
        "use": "preauthorization",
        "patient": {
          "reference": "urn:uuid:patient-sarah-johnson"
        },
        "created": "2025-01-15T09:00:00Z",
        "provider": {
          "identifier": {
            "system": "http://hl7.org/fhir/sid/us-npi",
            "value": "1234567890"
          },
          "display": "Seattle Family Planning Clinic"
        },
        "priority": {
          "coding": [
            {
              "system": "http://terminology.hl7.org/CodeSystem/processpriority",
              "code": "normal"
            }
          ]
        },
        "diagnosis": [
          {
            "sequence": 1,
            "diagnosisCodeableConcept": {
              "coding": [
                {
                  "system": "http://hl7.org/fhir/sid/icd-10-cm",
                  "code": "Z30.09",
                  "display": "Encounter for initial prescription of contraceptives"
                }
              ]
            },
            "type": [
              {
                "coding": [
                  {
                    "system": "http://terminology.hl7.org/CodeSystem/ex-diagnosistype",
                    "code": "principal"
                  }
                ]
              }
            ]
          }
        ],
        "insurance": [
          {
            "sequence": 1,
            "focal": true,
            "coverage": {
              "reference": "urn:uuid:coverage-family-planning-only"
            }
          }
        ],
        "item": [
          {
            "sequence": 1,
            "productOrService": {
              "coding": [
                {
                  "system": "http://www.ama-assn.org/go/cpt",
                  "code": "99401",
                  "display": "Preventive medicine counseling and/or risk factor reduction intervention(s) provided to an individual (separate procedure); approximately 15 minutes"
                }
              ]
            },
            "servicedDate": "2025-01-15",
            "unitPrice": {
              "value": 45.00,
              "currency": "USD"
            }
          },
          {
            "sequence": 2,
            "productOrService": {
              "coding": [
                {
                  "system": "http://www.ama-assn.org/go/cpt",
                  "code": "99213",
                  "display": "Office or other outpatient visit for the evaluation and management of an established patient"
                }
              ]
            },
            "servicedDate": "2025-01-15",
            "unitPrice": {
              "value": 85.00,
              "currency": "USD"
            }
          },
          {
            "sequence": 3,
            "productOrService": {
              "coding": [
                {
                  "system": "http://www.ama-assn.org/go/cpt",
                  "code": "81025",
                  "display": "Urine pregnancy test, by visual color comparison methods"
                }
              ]
            },
            "servicedDate": "2025-01-15",
            "unitPrice": {
              "value": 15.00,
              "currency": "USD"
            }
          },
          {
            "sequence": 4,
            "productOrService": {
              "coding": [
                {
                  "system": "http://www.ama-assn.org/go/cpt",
                  "code": "87591",
                  "display": "Chlamydia trachomatis and Neisseria gonorrhoeae, amplified nucleic acid detection"
                }
              ]
            },
            "servicedDate": "2025-01-15",
            "unitPrice": {
              "value": 65.00,
              "currency": "USD"
            }
          }
        ],
        "total": {
          "value": 210.00,
          "currency": "USD"
        }
      }
    },
    {
      "fullUrl": "urn:uuid:claim-response-approved",
      "resource": {
        "resourceType": "ClaimResponse",
        "id": "claim-response-approved",
        "status": "active",
        "type": {
          "coding": [
            {
              "system": "http://terminology.hl7.org/CodeSystem/claim-type",
              "code": "professional"
            }
          ]
        },
        "use": "preauthorization",
        "patient": {
          "reference": "urn:uuid:patient-sarah-johnson"
        },
        "created": "2025-01-15T09:30:00Z",
        "insurer": {
          "display": "Washington State Health Care Authority"
        },
        "request": {
          "reference": "urn:uuid:claim-request"
        },
        "outcome": "complete",
        "disposition": "APPROVED - All requested services are covered under the Family Planning Only program. Patient meets all eligibility criteria.",
        "preAuthRef": "FPO-2025-001-APPROVED",
        "item": [
          {
            "itemSequence": 1,
            "adjudication": [
              {
                "category": {
                  "coding": [
                    {
                      "system": "http://terminology.hl7.org/CodeSystem/adjudication",
                      "code": "eligible"
                    }
                  ]
                },
                "amount": {
                  "value": 45.00,
                  "currency": "USD"
                }
              }
            ]
          },
          {
            "itemSequence": 2,
            "adjudication": [
              {
                "category": {
                  "coding": [
                    {
                      "system": "http://terminology.hl7.org/CodeSystem/adjudication",
                      "code": "eligible"
                    }
                  ]
                },
                "amount": {
                  "value": 85.00,
                  "currency": "USD"
                }
              }
            ]
          },
          {
            "itemSequence": 3,
            "adjudication": [
              {
                "category": {
                  "coding": [
                    {
                      "system": "http://terminology.hl7.org/CodeSystem/adjudication",
                      "code": "eligible"
                    }
                  ]
                },
                "amount": {
                  "value": 15.00,
                  "currency": "USD"
                }
              }
            ]
          },
          {
            "itemSequence": 4,
            "adjudication": [
              {
                "category": {
                  "coding": [
                    {
                      "system": "http://terminology.hl7.org/CodeSystem/adjudication",
                      "code": "eligible"
                    }
                  ]
                },
                "amount": {
                  "value": 65.00,
                  "currency": "USD"
                }
              }
            ]
          }
        ],
        "total": [
          {
            "category": {
              "coding": [
                {
                  "system": "http://terminology.hl7.org/CodeSystem/adjudication",
                  "code": "eligible"
                }
              ]
            },
            "amount": {
              "value": 210.00,
              "currency": "USD"
            }
          }
        ]
      }
    }
  ]
}
